{
  "resourceType": "Bundle",
  "id": "bundle-01",
  "type": "collection",
  "entry": [
    {
      "resource": {
        "resourceType": "Patient",
        "id": "pat-01",
        "identifier": [
          {
            "system": "http://hospital-a.com/patients",
            "value": "EXT-123456"
          }
        ],
        "name": [
          {
            "family": "Smith",
            "given": [
              "John"
            ]
          }
        ],
        "gender": "male",
        "birthDate": "1980-01-15"
      }
    },
    {
      "resource": {
        "resourceType": "Encounter",
        "id": "enc-01",
        "status": "finished",
        "class": {
          "system": "http://terminology.hl7.org/CodeSystem/v3-ActCode",
          "code": "AMB"
        },
        "subject": {
          "reference": "Patient/pat-01"
        },
        "period": {
          "start": "2025-01-10T09:00:00Z",
          "end": "2025-01-10T10:00:00Z"
        }
      }
    },
    {
      "resource": {
        "resourceType": "Observation",
        "id": "obs-01",
        "status": "final",
        "code": {
            "coding": [
                {
                    "system": "http://loinc.org",
                    "code": "8867-4",
                    "display": "Heart rate"
                }
            ]
        },
        "subject": {
          "reference": "Patient/pat-01"
        },
        "encounter": {
          "reference": "Encounter/enc-01"
        },
        "effectiveDateTime": "2025-01-10T09:30:00Z",
        "valueQuantity": {
          "value": 72,
          "unit": "beats/min",
          "system": "http://unitsofmeasure.org",
          "code": "/min"
        }
      }
    }
  ]
}