{
  "resourceType": "Bundle",
  "id": "bundle-02",
  "type": "collection",
  "entry": [
    {
      "resource": {
        "resourceType": "Patient",
        "id": "pat-02",
        "identifier": [
          {
            "system": "http://hospital-a.com/patients",
            "value": "EXT-987654"
          }
        ],
        "name": [
          {
            "family": "Doe",
            "given": [
              "Jane"
            ]
          }
        ],
        "gender": "female",
        "birthDate": "1992-05-20"
      }
    },
    {
      "resource": {
        "resourceType": "Encounter",
        "id": "enc-02",
        "status": "finished",
        "class": {
          "system": "http://terminology.hl7.org/CodeSystem/v3-ActCode",
          "code": "IMP"
        },
        "subject": {
          "reference": "Patient/pat-02"
        },
        "period": {
          "start": "2025-02-15T14:00:00Z",
          "end": "2025-02-18T11:00:00Z"
        }
      }
    },
    {
      "resource": {
        "resourceType": "Observation",
        "id": "obs-02",
        "status": "final",
        "code": {
            "coding": [
                {
                    "system": "http://loinc.org",
                    "code": "8302-2",
                    "display": "Body height"
                }
            ]
        },
        "subject": {
          "reference": "Patient/pat-02"
        },
        "encounter": {
          "reference": "Encounter/enc-02"
        },
        "effectiveDateTime": "2025-02-15T14:30:00Z",
        "valueQuantity": {
          "value": 165,
          "unit": "cm",
          "system": "http://unitsofmeasure.org",
          "code": "cm"
        }
      }
    }
  ]
}